Folder: Lab-experiment-A/ThemeT/ZnO紫外線吸光

File: ZnO_UV-Vis.csv
UV/Vis spectrum of ZnO thin film on Al2O3(0001),
,
Wavelength (nm),Absorbance (a.u.)
300,0.181
302.5,0.18
305,0.18
307.5,0.199
310,0.198
312.5,0.196
315,0.193
317.5,0.19
320,0.187
322.5,0.185
325,0.183
327.5,0.182
330,0.181
332.5,0.18
335,0.179
337.5,0.177
340,0.176
342.5,0.174
345,0.173
347.5,0.171
350,0.172
352.5,0.172
355,0.17
357.5,0.168
360,0.164
362.5,0.159
365,0.164
367.5,0.171
370,0.163
372.5,0.151
375,0.139
377.5,0.126
380,0.116
382.5,0.108
385,0.101
387.5,0.097
390,0.094
392.5,0.09
395,0.089
397.5,0.086
400,0.086
402.5,0.083
405,0.082
407.5,0.082
410,0.08
412.5,0.08
415,0.079
417.5,0.085
420,0.085
422.5,0.084
425,0.083
427.5,0.083
430,0.082
432.5,0.082
435,0.082
437.5,0.081
440,0.081
442.5,0.08
445,0.08
447.5,0.08
450,0.08
452.5,0.08
455,0.079
457.5,0.079
460,0.079
462.5,0.079
465,0.078
467.5,0.079
470,0.078
472.5,0.077
475,0.077
477.5,0.076
480,0.076
482.5,0.077
485,0.081
487.5,0.084
490,0.085
492.5,0.085
495,0.082
497.5,0.08
500,0.078
502.5,0.076
505,0.075
507.5,0.075
510,0.074
512.5,0.074
515,0.074
517.5,0.074
520,0.073
522.5,0.073
525,0.073
527.5,0.072
530,0.073
532.5,0.073
535,0.072
537.5,0.082
540,0.081
542.5,0.08
545,0.079
547.5,0.079
550,0.078
552.5,0.078
555,0.078
557.5,0.078
560,0.078
562.5,0.078
565,0.078
567.5,0.078
570,0.078
572.5,0.077
575,0.078
577.5,0.078
580,0.078
582.5,0.079
585,0.078
587.5,0.078
590,0.077
592.5,0.078
595,0.078
597.5,0.079
600,0.078
602.5,0.078
605,0.079
607.5,0.079
610,0.079
612.5,0.079
615,0.078
617.5,0.078
620,0.079
622.5,0.079
625,0.08
627.5,0.08
630,0.08
632.5,0.08
635,0.08
637.5,0.081
640,0.081
642.5,0.082
645,0.082
647.5,0.083
650,0.083
652.5,0.084
655,0.083
657.5,0.084
660,0.085
662.5,0.085
665,0.085
667.5,0.085
670,0.086
672.5,0.086
675,0.087
677.5,0.088
680,0.088
682.5,0.088
685,0.089
687.5,0.09
690,0.09
692.5,0.09
695,0.09
697.5,0.09
700,0.092
702.5,0.092
705,0.092
707.5,0.093
710,0.093
712.5,0.094
715,0.094
717.5,0.094
720,0.095
722.5,0.095
725,0.096
727.5,0.096
730,0.096
732.5,0.096
735,0.097
737.5,0.098
740,0.097
742.5,0.098
745,0.098
747.5,0.098
750,0.098
752.5,0.098
755,0.098
757.5,0.098
760,0.099
762.5,0.102
765,0.102
767.5,0.103
770,0.102
772.5,0.101
775,0.101
777.5,0.102
780,0.1
782.5,0.101
785,0.099
787.5,0.099
790,0.099
792.5,0.099
795,0.099
797.5,0.098
800,0.098
802.5,0.101
805,0.099
807.5,0.099
810,0.097
812.5,0.096
815,0.094
817.5,0.093
820,0.092
822.5,0.089
825,0.089
827.5,0.089
830,0.087
832.5,0.088
835,0.088
837.5,0.088
840,0.091
842.5,0.092
845,0.094
847.5,0.095
850,0.097
852.5,0.098
855,0.101
857.5,0.102
860,0.103
862.5,0.106
865,0.108
867.5,0.11
870,0.114
872.5,0.118
875,0.123
877.5,0.127
880,0.132
882.5,0.131
885,0.135
887.5,0.145
890,0.15
892.5,0.155
895,0.154
897.5,0.152
900,0.156
902.5,0.164
905,0.166
907.5,0.148
910,0.147
912.5,0.139
915,0.129
917.5,0.132
920,0.134
922.5,0.133
925,0.127
927.5,0.118
930,0.118
932.5,0.124
935,0.132
937.5,0.149
940,0.133
942.5,0.123
945,0.095
947.5,0.081
950,0.078
952.5,0.058
955,0.03
957.5,0.02
960,0.015
962.5,0.012
965,0.014
967.5,0.013
970,0.017
972.5,0.011
975,0.014
977.5,0.013
980,0.011
982.5,0.008
985,0.003
987.5,0.006
990,0
992.5,0.002
995,0.003
997.5,0.002
1000,-0.002